aX,aY,aZ,gX,gY,gZ
-1.186,-0.258,1.650,-280.945,-284.973,-253.723
-1.192,-0.324,1.880,-265.137,-285.034,-234.192
-1.139,-0.359,2.057,-227.173,-259.827,-203.491
-1.086,-0.306,2.250,-237.549,-205.505,-164.917
-1.021,-0.242,2.353,-235.291,-124.329,-131.409
-0.906,-0.184,2.341,-207.275,-27.893,-110.779
-0.902,-0.138,2.174,-182.678,72.021,-100.403
-0.901,-0.075,1.913,-184.387,168.274,-98.206
-0.856,-0.044,1.605,-185.974,247.375,-102.051
-0.846,-0.105,1.246,-168.823,293.579,-109.924
-0.918,-0.196,0.975,-192.688,315.735,-119.263
-0.844,-0.231,0.799,-260.071,319.397,-117.249
-0.682,-0.208,0.762,-284.668,304.626,-99.487
-0.551,-0.238,0.656,-187.561,276.489,-75.806
-0.477,-0.216,0.648,-70.068,246.277,-47.485
-0.447,-0.195,0.641,52.979,217.773,-19.165
-0.432,-0.167,0.641,171.082,194.214,9.949
-0.380,-0.104,0.690,249.329,172.363,43.640
-0.431,0.008,0.768,281.860,157.104,81.604
-0.469,0.103,0.789,295.105,153.381,114.319
-0.380,0.251,0.829,254.700,165.649,141.479
-0.349,0.397,0.825,221.375,186.707,160.156
-0.356,0.512,0.767,213.684,208.191,169.800
-0.374,0.604,0.685,204.468,227.600,173.218
-0.314,0.694,0.617,190.430,243.958,172.119
-0.263,0.779,0.538,207.275,250.000,166.748
-0.307,0.866,0.457,234.192,248.535,161.865
-0.314,0.970,0.365,229.126,245.056,154.114
-0.209,1.072,0.268,200.317,240.662,135.010
-0.141,1.139,0.185,171.570,232.788,106.262
-0.135,1.162,0.113,163.879,215.759,76.599
-0.156,1.137,0.028,161.499,189.087,49.194
-0.156,1.109,-0.036,129.456,155.029,26.062
-0.086,1.091,-0.068,78.796,114.868,6.653
-0.010,1.086,-0.047,41.382,65.796,-9.277
0.039,1.078,0.052,20.386,11.230,-24.353
0.058,1.097,0.247,4.333,-39.795,-39.001
-0.014,1.072,0.415,-3.845,-80.688,-52.979
-0.012,1.048,0.595,-37.964,-101.135,-70.496
0.144,0.997,0.681,-81.543,-108.337,-90.027
0.038,0.950,0.764,-137.024,-110.840,-114.197
-0.075,0.879,0.782,-201.721,-110.229,-135.498
-0.024,0.817,0.802,-258.850,-101.196,-151.001
0.029,0.767,0.869,-265.076,-93.689,-161.682
0.074,0.729,0.938,-183.472,-90.942,-172.729
0.042,0.633,1.006,-59.814,-90.210,-187.988
0.026,0.501,1.089,23.193,-88.745,-209.106
-0.051,0.354,1.200,68.298,-84.656,-227.478
-0.073,0.210,1.287,103.760,-78.003,-240.173
-0.165,0.096,1.319,141.907,-64.758,-241.455
-0.218,0.004,1.308,168.335,-44.189,-229.065
-0.222,-0.122,1.245,164.185,-16.968,-218.323
-0.270,-0.282,1.113,140.320,11.536,-212.341
-0.267,-0.406,1.009,81.360,37.415,-203.613
-0.251,-0.508,0.857,63.843,49.438,-185.120
-0.227,-0.533,0.758,61.890,46.265,-154.846
-0.199,-0.498,0.712,62.805,28.381,-124.329
-0.222,-0.414,0.754,56.152,2.441,-101.013
-0.211,-0.353,0.862,36.377,-21.851,-91.370
-0.163,-0.341,0.993,10.254,-36.682,-99.365
-0.195,-0.433,1.053,8.545,-40.283,-118.103
-0.213,-0.640,1.064,10.437,-34.973,-146.973
-0.255,-0.927,1.042,14.282,-26.367,-179.932
-0.328,-1.246,0.996,36.560,-20.325,-204.468
-0.427,-1.536,0.938,52.307,-18.738,-209.595
-0.459,-1.754,0.867,54.993,-20.447,-194.031
-0.483,-1.903,0.820,51.514,-26.245,-162.354
-0.453,-1.955,0.810,47.852,-34.058,-122.437
-0.473,-1.915,0.833,44.983,-40.588,-74.585
-0.473,-1.805,0.875,51.575,-45.898,-28.076
-0.472,-1.641,0.911,52.246,-47.058,11.047
-0.462,-1.475,0.928,47.974,-43.213,39.307
-0.424,-1.374,0.886,37.170,-34.180,53.040
-0.383,-1.334,0.843,30.762,-25.452,57.495
-0.391,-1.366,0.810,32.410,-22.583,57.373
-0.405,-1.459,0.783,38.330,-23.926,57.617
-0.415,-1.514,0.805,38.330,-26.123,67.688
-0.422,-1.488,0.845,42.114,-31.433,91.675
-0.463,-1.396,0.891,45.227,-38.513,121.155
-0.406,-1.298,0.957,31.982,-39.917,144.043
-0.377,-1.188,0.983,29.907,-34.851,161.804
-0.423,-1.074,0.956,38.574,-25.146,177.734
-0.385,-0.962,0.902,32.715,-10.864,190.552
-0.351,-0.848,0.812,25.879,3.296,199.585
-0.345,-0.734,0.714,30.640,14.038,206.848
-0.387,-0.619,0.606,33.630,20.508,214.539
-0.365,-0.510,0.481,31.189,22.217,221.985
-0.295,-0.382,0.390,21.423,17.334,230.469
-0.268,-0.221,0.351,13.672,0.732,242.249
-0.227,-0.048,0.403,-6.775,-21.667,248.779
-0.160,0.104,0.481,-17.151,-42.664,246.338
-0.146,0.224,0.561,-2.747,-62.378,239.441
-0.166,0.330,0.673,2.563,-81.787,231.934
-0.184,0.446,0.815,5.920,-95.947,225.159
-0.218,0.550,0.935,27.405,-108.704,222.168
-0.266,0.678,1.074,38.269,-121.521,222.107
-0.278,0.825,1.233,30.273,-130.310,220.764
-0.283,0.952,1.366,22.156,-132.690,214.294
-0.300,1.068,1.486,10.925,-127.930,201.294
-0.318,1.161,1.569,-2.014,-115.845,183.472
-0.305,1.231,1.618,-16.785,-96.252,158.813
-0.322,1.276,1.630,-32.959,-72.144,127.808
-0.314,1.294,1.609,-38.513,-47.180,95.154
-0.347,1.315,1.577,-39.307,-24.048,63.538
-0.395,1.331,1.510,-35.706,-4.639,35.400
-0.428,1.357,1.448,-41.382,10.925,13.550
-0.440,1.373,1.372,-42.847,22.339,-7.568
-0.455,1.382,1.302,-44.861,28.198,-30.762
-0.468,1.399,1.259,-59.021,30.151,-56.763
-0.494,1.385,1.203,-70.740,30.701,-86.670
-0.486,1.300,1.121,-87.769,32.532,-120.972
-0.444,1.137,1.059,-121.338,32.104,-162.659
-0.410,0.888,1.017,-151.184,26.917,-212.280
-0.411,0.566,1.004,-168.213,18.860,-262.573
-0.392,0.242,1.058,-179.077,6.836,-302.856
-0.410,-0.080,1.123,-155.090,-6.653,-323.486
-0.459,-0.368,1.178,-114.807,-17.395,-323.120
-0.468,-0.567,1.247,-91.309,-20.569,-301.636
-0.453,-0.667,1.288,-66.833,-14.587,-261.108

-0.525,-1.475,1.302,-122.559,-76.233,-295.959
-0.552,-1.690,1.496,-145.020,-85.876,-274.353
-0.555,-1.855,1.644,-117.249,-87.341,-232.849
-0.567,-1.922,1.761,-89.294,-71.777,-169.922
-0.528,-1.879,1.785,-45.288,-42.664,-96.863
-0.479,-1.718,1.703,-8.240,-2.747,-25.146
-0.426,-1.485,1.503,23.865,38.208,32.410
-0.381,-1.247,1.293,32.471,70.679,71.106
-0.351,-1.083,1.084,37.903,88.196,86.731
-0.290,-1.007,0.922,39.124,91.675,83.435
-0.242,-0.988,0.818,40.344,83.618,72.998
-0.241,-1.004,0.758,50.964,67.627,64.575
-0.243,-1.031,0.749,56.396,48.340,64.331
-0.240,-1.030,0.790,55.054,31.311,73.425
-0.238,-0.992,0.842,58.167,18.494,89.539
-0.258,-0.907,0.873,64.819,12.085,110.657
-0.258,-0.796,0.881,59.753,14.038,131.531
-0.224,-0.676,0.851,47.546,22.156,147.339
-0.211,-0.566,0.784,42.542,32.166,158.630
-0.182,-0.471,0.703,41.931,38.269,165.649
-0.171,-0.387,0.637,48.218,35.889,169.067
-0.148,-0.326,0.608,58.472,24.292,169.495
-0.132,-0.267,0.630,65.430,6.470,167.542
-0.135,-0.198,0.699,64.636,-10.986,166.443
-0.150,-0.138,0.777,67.932,-26.001,165.894
-0.166,-0.091,0.834,64.087,-34.119,163.757
-0.178,-0.040,0.876,52.551,-34.485,161.194
-0.190,0.006,0.881,45.227,-30.823,159.790
-0.229,0.056,0.885,40.039,-28.381,160.339
-0.254,0.125,0.907,31.982,-30.090,164.124
-0.249,0.215,0.955,28.198,-36.377,169.556
-0.246,0.317,1.028,21.729,-44.800,174.194
-0.242,0.417,1.117,13.184,-52.429,174.866
-0.214,0.511,1.199,7.690,-53.833,171.326
-0.206,0.586,1.243,15.137,-48.645,164.978
-0.208,0.658,1.261,28.320,-39.917,159.302
-0.217,0.743,1.262,36.011,-30.579,155.640
-0.217,0.855,1.242,44.495,-20.935,155.212
-0.215,0.998,1.230,46.448,-13.794,155.762
-0.224,1.141,1.213,43.457,-9.521,151.489
-0.227,1.273,1.188,35.522,-5.798,138.916
-0.220,1.374,1.154,23.865,-2.869,118.530
-0.208,1.442,1.123,8.667,-0.977,91.003
-0.194,1.472,1.121,-6.653,-2.319,57.251
-0.196,1.438,1.152,-13.245,-8.545,20.203
-0.228,1.347,1.233,-20.874,-17.761,-15.869
-0.247,1.219,1.324,-26.550,-22.217,-47.974
-0.272,1.090,1.392,-29.602,-19.043,-70.801
-0.264,0.992,1.429,-32.471,-7.751,-86.853
-0.289,0.897,1.399,-26.794,10.315,-99.792
-0.326,0.809,1.292,-12.878,32.471,-109.314
-0.327,0.748,1.144,-4.517,52.795,-114.258
-0.320,0.692,0.974,5.798,65.186,-118.408
-0.319,0.640,0.845,3.113,64.575,-126.221
-0.291,0.574,0.770,-6.531,53.101,-138.306
-0.273,0.489,0.763,-14.771,34.729,-154.175
-0.302,0.367,0.818,-20.996,12.756,-173.096
-0.309,0.201,0.898,-26.489,-5.676,-193.359
-0.306,0.013,1.003,-34.668,-17.395,-211.792
-0.310,-0.179,1.097,-34.302,-23.071,-223.328
-0.338,-0.353,1.176,-27.832,-22.217,-224.609
-0.354,-0.482,1.233,-24.841,-15.137,-215.698
-0.367,-0.564,1.241,-21.240,-1.587,-198.242
-0.375,-0.594,1.187,-16.541,15.625,-175.781
-0.370,-0.575,1.094,-15.259,32.593,-152.954
-0.346,-0.526,0.997,-16.296,42.664,-134.521
-0.324,-0.494,0.910,-15.320,44.128,-126.038
-0.315,-0.499,0.846,-10.254,39.368,-126.160
-0.313,-0.543,0.813,-5.493,30.884,-130.127
-0.332,-0.646,0.809,-3.357,20.264,-135.986
-0.337,-0.785,0.854,-10.681,9.338,-144.104
-0.318,-0.948,0.901,-17.517,1.465,-149.597
-0.301,-1.100,0.950,-16.418,-3.113,-147.034
-0.288,-1.227,0.992,-13.733,-5.249,-136.536
-0.297,-1.317,1.015,-7.385,-4.944,-119.263
-0.294,-1.374,1.013,-4.456,-2.380,-97.534
-0.277,-1.388,1.000,-6.714,3.418,-74.707
-0.253,-1.379,0.964,-5.554,8.728,-52.246
-0.250,-1.356,0.927,-2.563,10.498,-33.630
-0.251,-1.316,0.898,-1.648,10.071,-18.433
-0.254,-1.277,0.864,-0.549,9.338,-5.798
-0.260,-1.271,0.823,0.610,7.446,3.174
-0.258,-1.283,0.811,-3.479,3.479,11.292
-0.241,-1.288,0.818,-4.883,-1.038,21.667
-0.245,-1.258,0.835,1.709,-5.676,36.804
-0.252,-1.185,0.865,9.766,-10.071,54.565
-0.257,-1.086,0.899,14.282,-12.817,71.472
-0.254,-0.984,0.928,13.855,-12.451,85.449
-0.245,-0.881,0.932,9.216,-8.423,96.130
-0.238,-0.788,0.913,7.019,-3.296,104.736
-0.227,-0.702,0.891,7.629,-0.061,112.061
-0.223,-0.622,0.880,8.911,0.305,117.065
-0.238,-0.573,0.855,11.780,-0.244,118.713
-0.235,-0.551,0.812,10.498,0.732,118.469
-0.224,-0.533,0.755,7.812,2.075,119.507
-0.218,-0.499,0.700,11.047,0.732,124.695
-0.205,-0.435,0.677,15.259,-5.310,133.850
-0.190,-0.338,0.707,16.724,-17.212,144.043
-0.182,-0.229,0.777,14.771,-31.860,152.893
-0.177,-0.121,0.875,7.263,-43.396,157.654
-0.188,-0.030,0.963,-0.732,-49.438,157.837
-0.200,0.050,1.023,-3.540,-48.889,156.067
-0.220,0.128,1.067,-4.944,-45.471,155.640
-0.247,0.220,1.108,-6.714,-42.236,156.494
-0.278,0.325,1.140,-6.470,-39.490,159.546
-0.276,0.443,1.167,-5.371,-36.804,162.964
-0.268,0.576,1.190,-3.906,-34.485,166.138
-0.258,0.723,1.213,-0.244,-31.738,167.786
-0.245,0.865,1.224,6.958,-29.785,166.931
-0.246,0.997,1.244,7.019,-28.381,160.156
-0.231,1.094,1.261,0.000,-25.940,145.813
-0.207,1.170,1.284,-4.639,-21.790,126.953
-0.195,1.238,1.296,-1.953,-17.151,108.643
-0.191,1.297,1.315,-0.366,-13.184,90.332
-0.181,1.319,1.327,-6.653,-8.240,67.322
-0.172,1.295,1.314,-17.090,0.916,39.307
-0.159,1.226,1.255,-26.306,13.672,11.780
-0.157,1.150,1.180,-31.738,25.879,-9.521
-0.156,1.090,1.101,-30.090,33.630,-24.109

-0.431,-1.127,1.296,-21.912,-32.166,-158.508
-0.401,-1.189,1.292,-27.344,-15.259,-134.766
-0.368,-1.214,1.230,-28.381,2.197,-111.633
-0.339,-1.221,1.154,-28.748,15.442,-92.224
-0.318,-1.251,1.085,-28.015,20.203,-80.383
-0.294,-1.301,1.046,-28.259,19.775,-72.266
-0.276,-1.341,1.037,-27.771,16.968,-60.669
-0.260,-1.355,1.048,-23.926,12.451,-44.312
-0.243,-1.341,1.077,-19.409,8.606,-26.184
-0.223,-1.307,1.107,-16.357,8.057,-9.155
-0.219,-1.272,1.098,-9.338,12.695,5.066
-0.225,-1.230,1.042,-1.404,21.057,19.409
-0.231,-1.175,0.954,2.441,30.151,34.058
-0.219,-1.097,0.857,4.211,37.476,49.194
-0.216,-0.993,0.750,9.644,40.833,65.308
-0.203,-0.876,0.671,14.648,37.109,80.017
-0.204,-0.767,0.635,14.587,26.611,89.722
-0.194,-0.686,0.644,11.047,12.756,93.323
-0.195,-0.646,0.683,6.714,-0.183,93.140
-0.203,-0.649,0.757,-0.916,-10.193,91.614
-0.203,-0.670,0.835,-9.399,-16.724,92.529
-0.213,-0.662,0.903,-14.526,-19.104,99.304
-0.222,-0.625,0.941,-13.855,-17.883,110.229
-0.214,-0.568,0.956,-15.442,-13.367,120.728
-0.213,-0.515,0.938,-12.695,-8.545,129.028
-0.215,-0.459,0.918,-8.667,-5.981,136.719
-0.219,-0.383,0.899,-5.432,-5.554,146.606
-0.218,-0.289,0.891,-4.089,-6.836,158.142
-0.213,-0.174,0.897,-4.578,-10.193,169.861
-0.229,-0.044,0.925,-4.761,-15.442,180.237
-0.259,0.090,0.970,-4.761,-21.484,187.927
-0.291,0.224,1.025,-5.432,-27.283,193.176
-0.325,0.360,1.097,-7.812,-31.616,196.167
-0.334,0.493,1.159,-8.057,-32.104,197.266
-0.320,0.625,1.220,-10.376,-29.236,195.129
-0.324,0.760,1.255,-7.629,-22.583,191.284
-0.333,0.884,1.267,-4.211,-13.794,186.035
-0.323,0.991,1.259,-7.141,-3.967,175.964
-0.288,1.083,1.239,-12.146,5.554,162.109
-0.278,1.160,1.209,-15.686,13.977,147.095
-0.265,1.222,1.171,-16.907,21.118,131.836
-0.251,1.276,1.124,-17.090,27.283,117.737
-0.235,1.325,1.072,-16.418,32.043,104.675
-0.222,1.368,1.017,-17.212,35.461,91.797
-0.205,1.411,0.970,-18.066,37.048,78.430
-0.194,1.452,0.916,-15.076,37.415,64.880
-0.183,1.498,0.869,-13.550,36.865,51.697
-0.179,1.548,0.830,-11.353,35.400,38.086
-0.183,1.598,0.799,-6.897,33.447,22.888
-0.194,1.642,0.763,-3.601,32.349,5.432
-0.216,1.664,0.724,-2.075,31.372,-14.099
-0.236,1.643,0.673,-5.188,29.724,-38.757
-0.253,1.570,0.620,-10.986,26.550,-67.200
-0.258,1.447,0.592,-17.334,20.020,-96.252
-0.281,1.285,0.600,-19.775,10.437,-123.474
-0.284,1.126,0.632,-16.785,1.099,-145.569
-0.310,0.981,0.665,-9.766,-6.165,-160.522
-0.328,0.850,0.703,-7.507,-11.780,-171.265
-0.348,0.730,0.724,-5.920,-14.709,-179.565
-0.372,0.617,0.730,-1.892,-15.991,-186.890
-0.405,0.503,0.720,0.000,-16.846,-193.909
-0.401,0.383,0.709,-1.343,-19.348,-202.820
-0.434,0.250,0.703,-1.709,-24.719,-212.524
-0.457,0.097,0.722,-2.380,-34.973,-221.252
-0.478,-0.068,0.777,-4.578,-48.889,-228.577
-0.491,-0.234,0.874,-9.216,-64.819,-232.788
-0.507,-0.392,1.008,-14.832,-79.590,-232.849
-0.516,-0.528,1.159,-17.090,-89.844,-227.966
-0.528,-0.647,1.294,-11.963,-91.553,-217.529
-0.542,-0.755,1.395,-6.165,-83.984,-204.163
-0.552,-0.863,1.446,-2.563,-70.618,-190.857
-0.554,-0.963,1.462,-2.075,-54.382,-177.124
-0.540,-1.044,1.456,-3.784,-39.246,-161.743
-0.521,-1.102,1.439,-3.418,-28.748,-145.020
-0.512,-1.141,1.428,-1.709,-23.376,-126.770
-0.488,-1.170,1.441,-5.676,-20.935,-110.229
-0.460,-1.197,1.464,-14.771,-18.433,-97.656
-0.440,-1.230,1.479,-20.813,-13.489,-87.585
-0.416,-1.276,1.486,-27.893,-5.737,-78.308
-0.408,-1.336,1.483,-32.349,3.357,-70.007
-0.385,-1.389,1.467,-31.860,14.404,-59.387
-0.385,-1.420,1.425,-23.499,26.855,-42.908
-0.384,-1.410,1.352,-12.024,39.429,-20.813
-0.374,-1.349,1.248,-3.113,52.490,4.211
-0.354,-1.251,1.117,5.249,64.148,28.687
-0.340,-1.143,0.978,11.719,71.899,49.316
-0.326,-1.054,0.852,13.367,73.059,64.209
-0.309,-1.000,0.759,8.484,67.993,73.547
-0.283,-0.968,0.701,2.258,57.678,80.688
-0.273,-0.942,0.684,-1.953,43.640,88.867
-0.257,-0.919,0.708,-2.625,27.954,97.229
-0.266,-0.888,0.772,1.648,13.000,106.323
-0.285,-0.856,0.859,7.507,1.099,115.723
-0.310,-0.815,0.949,9.949,-4.578,125.549
-0.325,-0.742,1.007,13.855,-4.456,138.733
-0.340,-0.638,1.041,17.578,-2.136,155.151
-0.344,-0.510,1.062,15.808,0.732,170.715
-0.344,-0.382,1.065,10.742,5.615,181.335
-0.341,-0.280,1.039,3.723,13.489,184.387
-0.328,-0.217,0.970,-1.892,23.437,181.519
-0.314,-0.188,0.878,-5.676,31.616,177.246
-0.310,-0.164,0.800,-8.667,33.386,174.927
-0.318,-0.120,0.755,-7.263,27.954,177.979
-0.334,-0.047,0.750,-2.380,16.724,185.913
-0.335,0.067,0.807,3.418,1.892,197.754
-0.388,0.214,0.905,10.437,-12.817,210.388
-0.421,0.387,1.006,20.752,-24.353,223.450
-0.468,0.586,1.106,26.184,-29.602,236.511
-0.499,0.795,1.192,28.198,-28.687,246.216
-0.491,0.999,1.259,27.588,-23.499,248.596
-0.495,1.189,1.305,24.780,-15.625,243.958
-0.465,1.359,1.309,18.982,-3.601,230.591
-0.432,1.494,1.265,8.362,13.550,208.862
-0.393,1.574,1.169,-1.160,32.593,178.650
-0.369,1.593,1.036,-11.414,49.377,144.958
-0.348,1.572,0.899,-18.066,58.655,114.441
-0.310,1.554,0.806,-24.109,56.885,90.759
-0.270,1.553,0.772,-26.489,45.593,73.303
-0.227,1.579,0.797,-22.217,30.762,59.204

-0.207,1.596,0.903,-10.742,13.184,26.978
-0.208,1.583,0.927,-9.338,16.052,10.071
-0.209,1.565,0.916,-9.521,23.132,-4.333
-0.219,1.555,0.863,-10.681,32.654,-17.090
-0.243,1.554,0.770,-7.690,42.358,-28.381
-0.267,1.565,0.663,-9.155,50.354,-40.283
-0.274,1.560,0.549,-12.207,53.528,-56.702
-0.273,1.530,0.458,-13.184,50.049,-77.026
-0.280,1.469,0.413,-17.212,37.537,-101.257
-0.293,1.352,0.433,-22.339,18.372,-128.601
-0.299,1.196,0.507,-28.687,-3.174,-154.541
-0.306,1.020,0.601,-32.715,-21.057,-177.673
-0.319,0.833,0.694,-34.851,-32.410,-197.144
-0.329,0.642,0.767,-36.438,-36.804,-212.952
-0.361,0.457,0.805,-32.227,-35.461,-222.534
-0.408,0.284,0.809,-24.597,-32.654,-224.915
-0.417,0.135,0.799,-18.250,-30.823,-221.802
-0.411,0.017,0.802,-12.878,-34.546,-214.722
-0.448,-0.085,0.835,-8.728,-44.861,-207.642
-0.471,-0.165,0.910,-6.592,-59.265,-199.524
-0.491,-0.210,1.015,-6.531,-73.792,-188.416
-0.499,-0.220,1.140,-5.371,-84.045,-177.185
-0.500,-0.243,1.250,-5.981,-87.769,-171.570
-0.499,-0.309,1.360,-12.390,-86.609,-175.964
-0.505,-0.430,1.454,-18.005,-81.970,-187.317
-0.519,-0.575,1.514,-17.639,-72.693,-197.021
-0.528,-0.734,1.535,-12.390,-59.509,-199.280
-0.524,-0.875,1.539,-10.742,-45.349,-194.214
-0.519,-0.983,1.532,-11.230,-31.799,-182.068
-0.498,-1.070,1.502,-11.719,-19.409,-165.344
-0.473,-1.150,1.471,-16.174,-7.874,-149.048
-0.440,-1.211,1.428,-18.555,0.916,-132.629
-0.426,-1.244,1.378,-18.311,7.446,-114.197
-0.418,-1.260,1.332,-18.494,12.085,-94.849
-0.397,-1.267,1.299,-24.231,14.832,-76.904
-0.365,-1.280,1.288,-34.668,15.747,-63.416
-0.341,-1.310,1.297,-39.307,16.846,-53.101
-0.338,-1.348,1.291,-29.236,19.165,-40.588
-0.335,-1.364,1.275,-18.311,22.949,-23.254
-0.322,-1.327,1.244,-10.071,28.198,-0.610
-0.309,-1.238,1.196,-5.249,33.875,24.963
-0.291,-1.126,1.139,-3.845,38.879,47.424
-0.269,-1.030,1.075,-4.578,44.189,63.782
-0.255,-0.974,0.988,-2.441,49.438,73.730
-0.251,-0.939,0.902,0.488,51.819,81.238
-0.250,-0.908,0.844,2.502,48.584,90.271
-0.253,-0.868,0.817,4.272,40.161,101.318
-0.248,-0.799,0.830,6.836,29.846,115.356
-0.251,-0.703,0.865,11.536,20.081,131.836
-0.265,-0.592,0.921,12.817,12.146,147.888
-0.248,-0.487,0.975,7.385,8.423,159.485
-0.236,-0.395,1.006,0.061,9.583,166.565
-0.231,-0.311,1.010,-7.263,16.113,171.875
-0.233,-0.234,0.967,-10.925,25.696,176.819
-0.200,-0.154,0.908,-12.878,33.936,182.617
-0.189,-0.069,0.851,-10.986,37.537,188.843
-0.187,0.040,0.818,-4.700,35.034,196.899
-0.203,0.182,0.811,3.723,27.771,208.679
-0.233,0.354,0.838,11.780,17.883,221.924
-0.257,0.537,0.876,18.433,8.789,233.032
-0.304,0.731,0.921,21.301,2.014,240.356
-0.333,0.910,0.962,25.085,-2.136,241.211
-0.358,1.055,1.000,29.236,-6.042,233.521
-0.376,1.161,1.046,31.250,-11.719,218.750
-0.385,1.231,1.106,24.597,-15.564,201.172
-0.403,1.292,1.165,15.930,-15.503,184.143
-0.391,1.361,1.213,10.498,-11.292,169.861
-0.379,1.426,1.229,10.193,-3.479,156.799
-0.362,1.491,1.213,9.521,8.301,143.433
-0.345,1.568,1.163,7.446,24.170,129.333
-0.329,1.642,1.076,5.188,39.978,113.464
-0.338,1.707,0.966,1.404,54.382,94.971
-0.345,1.747,0.838,-2.930,65.735,73.853
-0.350,1.766,0.718,-6.042,70.313,50.964
-0.348,1.777,0.630,-9.033,66.101,28.564
-0.356,1.774,0.573,-11.230,55.908,7.996
-0.357,1.754,0.546,-15.747,44.067,-12.146
-0.356,1.719,0.529,-18.494,32.715,-33.203
-0.362,1.651,0.522,-23.560,22.766,-55.847
-0.345,1.560,0.523,-31.677,14.893,-80.383
-0.344,1.456,0.520,-32.654,10.437,-104.309
-0.359,1.352,0.512,-25.024,8.301,-125.000
-0.360,1.264,0.490,-13.367,6.470,-139.832
-0.388,1.186,0.473,-4.883,2.380,-152.771
-0.422,1.109,0.473,-4.028,-4.089,-166.382
-0.423,1.028,0.488,-5.554,-12.268,-180.725
-0.447,0.934,0.498,-4.211,-22.461,-196.655
-0.485,0.818,0.519,-5.371,-32.043,-215.149
-0.451,0.661,0.526,-5.188,-41.443,-239.075
-0.507,0.426,0.568,-12.878,-52.490,-269.409
-0.515,0.156,0.623,-24.536,-65.796,-295.349
-0.542,-0.116,0.702,-21.606,-81.543,-311.401
-0.570,-0.371,0.816,-13.428,-98.633,-313.416
-0.594,-0.578,0.947,-3.662,-113.953,-299.683
-0.603,-0.722,1.084,3.174,-124.573,-273.010
-0.597,-0.793,1.239,7.324,-128.723,-238.770
-0.610,-0.828,1.348,20.447,-125.793,-203.369
-0.591,-0.824,1.444,23.193,-116.394,-171.936
-0.565,-0.817,1.506,18.616,-103.210,-150.330
-0.544,-0.841,1.557,9.399,-89.539,-141.418
-0.525,-0.917,1.598,-2.014,-77.148,-143.616
-0.510,-1.047,1.633,-11.902,-66.162,-152.161
-0.516,-1.209,1.662,-19.775,-55.725,-157.776
-0.516,-1.370,1.689,-23.743,-44.434,-153.320
-0.499,-1.497,1.707,-25.879,-30.396,-138.184
-0.482,-1.577,1.711,-26.062,-14.648,-113.159
-0.458,-1.599,1.672,-23.499,2.747,-81.787
-0.428,-1.569,1.602,-20.630,21.545,-48.401
-0.403,-1.494,1.494,-13.977,39.185,-16.418
-0.379,-1.387,1.369,-8.301,53.223,12.024
-0.354,-1.284,1.248,-4.333,61.890,35.400
-0.331,-1.196,1.146,-3.357,63.721,53.101
-0.319,-1.115,1.070,-4.639,60.425,67.017
-0.317,-1.046,1.029,-7.324,53.772,79.102
-0.301,-0.984,1.031,-13.245,45.471,89.783
-0.295,-0.921,1.050,-16.113,38.635,101.196
-0.303,-0.847,1.061,-13.611,36.743,114.136
-0.306,-0.757,1.043,-5.371,40.588,130.005
-0.302,-0.644,1.011,3.418,46.204,148.499

-0.390,1.171,0.999,-0.244,37.292,186.646
-0.343,1.261,0.934,-3.906,47.668,174.866
-0.314,1.338,0.843,-4.761,55.481,160.950
-0.292,1.399,0.759,-4.944,59.387,143.127
-0.265,1.444,0.689,-5.859,57.312,124.207
-0.247,1.482,0.646,-5.676,50.110,105.591
-0.239,1.512,0.627,-3.540,41.260,87.463
-0.236,1.542,0.628,1.587,32.104,71.777
-0.251,1.580,0.637,5.981,24.475,59.387
-0.271,1.627,0.650,9.766,19.775,49.011
-0.291,1.681,0.654,10.986,18.860,38.818
-0.310,1.739,0.647,13.916,20.020,26.978
-0.329,1.787,0.632,17.273,22.095,11.658
-0.358,1.803,0.600,19.104,23.499,-8.057
-0.369,1.786,0.569,13.672,23.193,-34.119
-0.379,1.731,0.529,4.578,20.752,-66.345
-0.394,1.622,0.500,-3.113,14.526,-100.586
-0.407,1.484,0.492,-12.085,6.042,-132.629
-0.415,1.329,0.498,-20.020,-3.357,-160.461
-0.413,1.167,0.520,-27.039,-13.977,-184.753
-0.420,1.003,0.557,-31.189,-25.085,-207.336
-0.431,0.841,0.597,-27.283,-34.241,-227.112
-0.447,0.663,0.608,-13.306,-39.917,-242.676
-0.485,0.483,0.625,-7.080,-45.105,-255.615
-0.474,0.280,0.644,-8.179,-53.284,-269.592
-0.504,0.073,0.698,-15.137,-66.833,-282.104
-0.519,-0.128,0.792,-24.597,-85.571,-286.499
-0.533,-0.308,0.928,-26.001,-106.995,-280.640
-0.533,-0.450,1.095,-22.461,-126.160,-264.465
-0.550,-0.544,1.280,-17.944,-138.306,-241.882
-0.544,-0.598,1.451,-14.526,-139.526,-216.187
-0.531,-0.634,1.578,-13.855,-129.150,-191.895
-0.521,-0.669,1.659,-19.409,-111.023,-173.828
-0.496,-0.716,1.700,-26.855,-88.867,-163.086
-0.452,-0.788,1.688,-29.114,-64.453,-156.494
-0.441,-0.875,1.641,-25.391,-41.992,-148.804
-0.429,-0.952,1.588,-22.583,-24.414,-137.634
-0.406,-1.001,1.521,-17.273,-10.193,-122.681
-0.378,-1.021,1.466,-14.587,-0.732,-104.004
-0.358,-1.029,1.414,-12.939,4.395,-84.961
-0.329,-1.029,1.387,-14.343,6.836,-68.665
-0.305,-1.024,1.372,-16.174,8.606,-55.359
-0.286,-1.022,1.345,-11.902,11.292,-43.274
-0.294,-1.030,1.310,-10.010,14.282,-32.227
-0.275,-1.043,1.287,-17.395,17.578,-23.499
-0.241,-1.058,1.261,-26.917,20.813,-14.526
-0.228,-1.064,1.249,-29.846,22.949,-3.967
-0.231,-1.070,1.233,-22.888,23.071,8.606
-0.219,-1.046,1.229,-16.846,22.705,25.574
-0.225,-0.986,1.224,-10.193,24.353,46.570
-0.224,-0.893,1.219,-1.770,26.978,69.641
-0.223,-0.779,1.220,1.770,29.419,91.370
-0.219,-0.660,1.217,1.160,33.875,108.521
-0.230,-0.553,1.172,5.005,42.419,120.850
-0.234,-0.455,1.094,6.104,53.894,129.883
-0.248,-0.377,0.993,5.981,64.514,136.169
-0.257,-0.312,0.902,0.977,70.129,140.381
-0.253,-0.254,0.829,-4.272,68.420,143.799
-0.254,-0.195,0.787,-6.531,60.242,148.560
-0.254,-0.123,0.781,-8.118,48.157,155.945
-0.242,-0.030,0.804,-6.836,35.583,165.405
-0.242,0.078,0.850,-2.930,24.353,176.331
-0.258,0.196,0.914,-0.183,14.221,186.218
-0.275,0.305,0.980,0.366,6.836,191.895
-0.280,0.407,1.038,-2.014,4.639,192.627
-0.296,0.502,1.078,-4.822,8.972,190.491
-0.293,0.585,1.079,-5.127,20.142,186.646
-0.304,0.652,1.032,-1.099,34.546,181.091
-0.306,0.708,0.965,4.028,47.791,175.659
-0.315,0.755,0.882,6.775,56.274,172.058
-0.305,0.809,0.810,6.165,59.631,170.471
-0.299,0.878,0.756,6.653,58.350,171.326
-0.293,0.965,0.726,9.460,52.490,173.523
-0.285,1.072,0.723,13.367,43.823,174.011
-0.276,1.182,0.729,23.987,35.339,172.485
-0.264,1.280,0.740,29.114,27.893,165.039
-0.271,1.364,0.748,31.006,23.926,151.367
-0.245,1.430,0.752,26.855,21.484,132.935
-0.225,1.478,0.755,22.156,19.897,112.366
-0.232,1.506,0.750,19.897,19.531,91.858
-0.238,1.521,0.728,16.785,21.118,73.059
-0.244,1.524,0.697,12.329,23.071,55.359
-0.247,1.522,0.662,5.310,24.170,38.025
-0.257,1.512,0.621,3.113,25.146,22.461
-0.275,1.503,0.574,8.057,25.330,10.254
-0.287,1.509,0.536,11.475,23.865,1.160
-0.299,1.527,0.508,11.963,20.752,-7.141
-0.318,1.546,0.483,15.747,16.785,-18.372
-0.330,1.547,0.459,16.357,11.597,-34.607
-0.328,1.514,0.450,11.047,4.211,-56.396
-0.335,1.444,0.463,4.333,-5.432,-82.458
-0.345,1.340,0.501,1.221,-16.968,-108.643
-0.344,1.217,0.551,0.244,-28.137,-132.324
-0.354,1.079,0.594,4.944,-36.194,-154.419
-0.373,0.928,0.624,12.756,-41.870,-175.537
-0.397,0.780,0.656,11.841,-45.349,-193.237
-0.423,0.621,0.660,10.864,-46.631,-207.825
-0.442,0.466,0.664,9.277,-47.546,-219.666
-0.456,0.306,0.663,5.371,-51.575,-229.004
-0.469,0.156,0.686,0.854,-60.425,-233.765
-0.488,0.018,0.732,-1.831,-73.242,-233.276
-0.489,-0.104,0.815,-5.615,-90.454,-228.577
-0.490,-0.206,0.947,-13.062,-109.863,-222.229
-0.486,-0.302,1.093,-17.334,-126.831,-216.614
-0.504,-0.390,1.258,-23.010,-137.573,-211.426
-0.515,-0.488,1.409,-31.006,-140.076,-207.458
-0.507,-0.595,1.546,-44.678,-134.949,-206.238
-0.509,-0.721,1.654,-54.688,-123.596,-205.322
-0.509,-0.873,1.738,-59.448,-107.727,-202.576
-0.519,-1.046,1.786,-54.688,-90.515,-195.984
-0.538,-1.195,1.837,-49.072,-72.266,-180.786
-0.531,-1.296,1.842,-35.217,-50.964,-152.832
-0.526,-1.322,1.817,-19.836,-27.771,-114.319
-0.522,-1.282,1.738,0.244,-4.333,-70.435
-0.505,-1.165,1.624,17.883,17.761,-27.344
-0.475,-1.010,1.502,26.001,34.851,7.324
-0.438,-0.855,1.392,23.254,45.837,29.846
-0.419,-0.741,1.295,14.465,51.636,38.513
-0.375,-0.678,1.215,1.465,53.955,35.645

-0.379,1.610,0.819,34.912,-33.875,85.083
-0.373,1.654,0.918,22.583,-33.142,66.345
-0.374,1.679,0.956,13.611,-17.883,44.739
-0.387,1.680,0.905,11.841,7.935,21.606
-0.399,1.652,0.768,10.193,37.964,-0.793
-0.400,1.607,0.597,3.601,62.012,-20.508
-0.390,1.564,0.444,-5.310,72.388,-38.879
-0.385,1.519,0.320,-11.841,68.115,-55.969
-0.364,1.479,0.250,-18.616,52.124,-74.036
-0.342,1.424,0.219,-17.395,29.419,-93.628
-0.332,1.337,0.244,-12.085,2.625,-116.943
-0.332,1.206,0.321,-11.780,-24.170,-143.311
-0.339,1.043,0.429,-12.390,-47.974,-170.532
-0.352,0.870,0.541,-12.573,-66.223,-194.519
-0.357,0.689,0.633,-11.230,-77.148,-212.158
-0.376,0.516,0.710,-15.442,-81.360,-223.450
-0.364,0.351,0.761,-21.240,-81.604,-229.553
-0.365,0.207,0.807,-26.123,-81.177,-229.370
-0.369,0.098,0.852,-25.085,-82.703,-221.985
-0.374,0.002,0.889,-18.311,-87.708,-209.961
-0.399,-0.062,0.962,-19.287,-95.093,-196.838
-0.405,-0.108,1.045,-20.935,-104.675,-184.204
-0.419,-0.147,1.153,-18.555,-115.234,-175.720
-0.429,-0.199,1.273,-16.235,-123.047,-171.082
-0.465,-0.289,1.358,-6.775,-125.366,-169.250
-0.480,-0.380,1.463,-12.573,-123.901,-168.701
-0.497,-0.474,1.563,-25.513,-118.774,-167.786
-0.523,-0.569,1.636,-29.663,-108.032,-163.696
-0.547,-0.647,1.691,-35.156,-91.309,-153.320
-0.543,-0.701,1.703,-40.649,-70.801,-137.268
-0.554,-0.710,1.656,-48.706,-47.974,-115.479
-0.542,-0.660,1.623,-68.054,-25.757,-92.529
-0.514,-0.639,1.558,-70.007,-10.437,-74.341
-0.492,-0.633,1.503,-50.964,-0.732,-64.026
-0.464,-0.638,1.474,-59.570,7.568,-59.021
-0.421,-0.662,1.453,-64.148,14.404,-57.678
-0.411,-0.703,1.428,-58.716,20.447,-54.321
-0.405,-0.746,1.404,-48.950,25.208,-48.401
-0.390,-0.786,1.381,-39.551,29.785,-38.391
-0.387,-0.822,1.340,-25.085,34.851,-23.621
-0.372,-0.830,1.289,-13.489,40.588,-3.357
-0.354,-0.792,1.222,-5.188,47.791,21.423
-0.333,-0.710,1.152,1.831,53.833,48.584
-0.323,-0.600,1.088,6.653,56.885,73.364
-0.308,-0.490,1.033,9.094,56.580,91.736
-0.298,-0.394,1.002,5.981,53.528,102.417
-0.279,-0.322,0.997,-0.671,49.438,106.628
-0.266,-0.269,0.997,-3.723,45.837,107.849
-0.264,-0.221,0.999,-0.244,43.579,110.474
-0.274,-0.172,0.996,7.935,42.236,116.821
-0.282,-0.113,1.001,11.047,40.222,125.305
-0.289,-0.052,1.001,14.771,39.001,133.606
-0.291,0.015,1.001,14.648,40.161,141.663
-0.283,0.089,0.989,15.747,43.091,149.109
-0.279,0.168,0.969,18.677,46.448,156.555
-0.273,0.254,0.951,20.264,48.767,164.062
-0.269,0.348,0.935,22.156,50.232,170.959
-0.285,0.435,0.909,26.855,51.819,177.246
-0.288,0.536,0.891,23.193,54.626,182.007
-0.277,0.648,0.865,16.235,59.265,186.157
-0.300,0.753,0.833,11.536,63.171,188.171
-0.291,0.849,0.787,6.592,67.200,185.547
-0.295,0.938,0.739,2.441,71.533,180.237
-0.325,0.995,0.655,15.381,75.073,173.706
-0.341,1.052,0.586,25.269,74.158,168.213
-0.377,1.120,0.543,26.794,67.322,165.161
-0.391,1.205,0.527,28.381,55.481,163.330
-0.394,1.308,0.543,27.588,40.771,162.476
-0.388,1.426,0.582,27.588,25.513,159.363
-0.370,1.538,0.640,25.757,12.695,150.269
-0.356,1.624,0.696,26.123,4.883,133.118
-0.345,1.678,0.728,23.804,5.188,109.802
-0.343,1.706,0.715,20.386,13.550,81.482
-0.352,1.706,0.668,11.414,27.527,52.734
-0.354,1.675,0.574,7.507,41.199,26.245
-0.366,1.641,0.483,4.578,50.293,5.737
-0.379,1.618,0.395,3.418,52.795,-8.789
-0.363,1.599,0.316,6.348,49.744,-20.447
-0.363,1.584,0.249,9.155,42.236,-31.921
-0.370,1.573,0.205,9.216,30.518,-45.593
-0.370,1.554,0.175,7.629,16.602,-62.439
-0.355,1.505,0.166,5.310,-0.549,-85.083
-0.350,1.399,0.204,-4.089,-22.949,-113.892
-0.327,1.245,0.298,-18.738,-48.523,-146.606
-0.329,1.071,0.427,-25.391,-72.021,-178.040
-0.371,0.889,0.538,-15.930,-87.769,-201.904
-0.396,0.715,0.630,-1.648,-94.055,-215.332
-0.442,0.547,0.695,8.301,-93.933,-221.069
-0.452,0.402,0.733,9.216,-91.125,-218.506
-0.471,0.289,0.779,2.075,-90.332,-210.815
-0.487,0.201,0.829,-1.160,-94.360,-201.721
-0.503,0.129,0.899,-4.822,-103.699,-193.787
-0.509,0.069,1.009,-10.193,-117.249,-189.819
-0.522,-0.014,1.126,-11.292,-130.310,-191.162
-0.537,-0.129,1.268,-14.038,-141.357,-196.594
-0.567,-0.269,1.421,-20.752,-148.682,-202.698
-0.579,-0.418,1.576,-28.198,-149.353,-205.078
-0.585,-0.562,1.721,-36.072,-142.456,-199.890
-0.591,-0.683,1.839,-40.100,-127.136,-185.303
-0.582,-0.768,1.925,-39.795,-103.394,-163.086
-0.566,-0.837,1.946,-35.461,-76.050,-138.916
-0.530,-0.858,1.949,-35.461,-45.959,-113.647
-0.510,-0.870,1.878,-23.743,-15.808,-89.722
-0.497,-0.869,1.760,-12.573,11.780,-68.970
-0.479,-0.847,1.625,-10.498,35.278,-50.354
-0.451,-0.816,1.485,-5.981,51.941,-33.936
-0.420,-0.785,1.354,-7.263,61.401,-20.508
-0.374,-0.764,1.256,-12.573,63.354,-10.071
-0.356,-0.754,1.181,-15.686,59.937,-2.441
-0.336,-0.746,1.141,-20.020,53.772,5.798
-0.324,-0.739,1.119,-20.874,46.753,15.259
-0.320,-0.720,1.113,-18.250,40.710,26.672
-0.322,-0.681,1.111,-14.282,36.682,40.710
-0.318,-0.610,1.120,-9.399,34.119,58.044
-0.308,-0.516,1.131,-4.639,33.630,75.623
-0.306,-0.411,1.142,-0.854,35.400,91.309
-0.298,-0.305,1.120,7.874,39.307,105.042
-0.307,-0.198,1.095,10.376,43.884,115.723
-0.324,-0.119,1.062,7.019,48.767,118.652

-0.433,1.700,0.589,23.987,-0.366,132.080
-0.429,1.772,0.649,19.409,-3.540,113.403
-0.434,1.825,0.667,17.212,1.953,90.149
-0.431,1.841,0.642,17.578,14.282,62.927
-0.438,1.824,0.564,18.005,29.663,34.119
-0.436,1.779,0.460,15.198,43.274,7.263
-0.430,1.719,0.341,15.076,49.683,-17.273
-0.406,1.672,0.242,16.602,47.913,-40.039
-0.401,1.607,0.172,20.935,36.377,-62.134
-0.407,1.527,0.145,19.287,17.395,-84.045
-0.366,1.426,0.165,16.724,-4.395,-106.628
-0.341,1.297,0.233,10.315,-28.992,-129.822
-0.342,1.143,0.344,5.859,-52.734,-153.259
-0.353,0.969,0.456,3.235,-70.068,-173.828
-0.349,0.783,0.552,3.479,-79.712,-189.941
-0.364,0.605,0.638,6.226,-83.496,-199.402
-0.380,0.437,0.696,18.005,-84.045,-201.660
-0.398,0.304,0.736,37.048,-83.557,-194.458
-0.396,0.205,0.772,43.884,-85.632,-180.542
-0.407,0.156,0.856,31.250,-90.698,-165.100
-0.416,0.127,0.951,26.184,-99.365,-152.954
-0.421,0.106,1.061,24.353,-107.361,-146.667
-0.441,0.071,1.178,23.071,-110.962,-146.118
-0.447,-0.008,1.273,24.353,-110.779,-151.306
-0.471,-0.111,1.361,17.395,-107.483,-159.424
-0.484,-0.244,1.444,8.667,-102.478,-167.664
-0.504,-0.397,1.525,-1.953,-97.412,-174.561
-0.511,-0.540,1.608,-11.902,-90.942,-175.537
-0.504,-0.674,1.677,-20.691,-80.994,-168.396
-0.505,-0.782,1.715,-26.367,-67.017,-153.931
-0.470,-0.856,1.726,-32.043,-48.279,-133.972
-0.452,-0.897,1.705,-31.555,-28.076,-110.901
-0.431,-0.898,1.659,-28.198,-7.812,-85.938
-0.410,-0.880,1.572,-19.714,10.925,-63.843
-0.380,-0.848,1.472,-14.221,27.649,-44.800
-0.370,-0.817,1.366,-9.277,40.283,-29.480
-0.368,-0.801,1.268,-5.615,47.058,-18.677
-0.356,-0.791,1.196,-6.653,48.401,-10.010
-0.350,-0.787,1.137,-6.042,45.898,-1.831
-0.339,-0.773,1.114,-10.132,39.856,8.484
-0.330,-0.744,1.115,-15.564,32.898,21.362
-0.315,-0.692,1.139,-19.287,26.672,35.217
-0.304,-0.626,1.166,-20.935,23.621,49.011
-0.301,-0.548,1.178,-20.203,24.780,62.622
-0.299,-0.463,1.186,-21.423,29.419,74.036
-0.289,-0.384,1.168,-21.362,36.926,81.787
-0.292,-0.317,1.133,-17.944,45.715,87.036
-0.296,-0.264,1.082,-15.320,53.894,91.125
-0.278,-0.220,1.021,-15.015,60.547,94.543
-0.281,-0.166,0.965,-14.954,65.552,98.938
-0.263,-0.110,0.898,-12.268,67.932,105.347
-0.265,-0.040,0.841,-7.263,67.200,112.854
-0.270,0.031,0.797,-4.272,63.721,121.094
-0.258,0.111,0.786,-8.911,57.434,128.418
-0.239,0.202,0.805,-14.893,49.988,135.193
-0.224,0.297,0.831,-15.564,43.030,142.517
-0.211,0.394,0.850,-10.803,38.269,149.475
-0.199,0.499,0.875,-8.545,36.865,154.236
-0.200,0.594,0.871,-5.371,38.940,155.823
-0.210,0.679,0.852,-4.089,43.762,154.236
-0.222,0.748,0.818,-7.446,49.744,149.170
-0.224,0.805,0.774,-8.789,55.359,143.066
-0.258,0.856,0.713,-2.686,58.960,138.794
-0.274,0.928,0.666,5.798,59.326,139.099
-0.306,1.027,0.634,10.498,56.458,143.005
-0.331,1.151,0.618,15.015,52.612,146.606
-0.348,1.265,0.600,19.043,48.828,146.179
-0.348,1.364,0.587,19.165,44.983,140.259
-0.342,1.451,0.584,14.038,41.321,130.188
-0.334,1.526,0.576,14.221,37.720,118.225
-0.331,1.594,0.562,15.625,35.156,103.882
-0.326,1.656,0.541,17.029,34.424,88.623
-0.342,1.705,0.508,17.639,34.790,72.021
-0.335,1.747,0.485,18.677,35.706,54.016
-0.342,1.756,0.431,29.602,36.011,33.875
-0.364,1.739,0.363,31.067,35.645,12.817
-0.340,1.703,0.312,22.461,33.752,-10.315
-0.341,1.629,0.256,20.203,28.870,-35.034
-0.347,1.548,0.216,18.738,21.667,-57.922
-0.341,1.469,0.189,20.386,11.658,-77.637
-0.336,1.381,0.192,21.240,-2.136,-95.764
-0.338,1.278,0.233,23.010,-20.447,-115.479
-0.338,1.145,0.306,23.987,-40.039,-137.207
-0.335,0.990,0.399,17.639,-56.702,-158.630
-0.351,0.818,0.499,14.954,-70.618,-178.162
-0.339,0.626,0.583,15.198,-80.627,-192.810
-0.381,0.456,0.688,11.597,-87.952,-201.660
-0.410,0.281,0.746,22.705,-93.445,-203.796
-0.419,0.143,0.837,19.653,-97.290,-198.303
-0.421,0.035,0.939,18.188,-104.065,-188.171
-0.447,-0.044,1.070,23.254,-114.197,-175.964
-0.458,-0.106,1.215,25.818,-121.765,-163.391
-0.467,-0.151,1.357,23.865,-122.437,-152.649
-0.469,-0.190,1.467,23.987,-113.159,-143.250
-0.464,-0.227,1.518,27.283,-95.032,-135.559
-0.464,-0.266,1.520,27.039,-71.472,-129.578
-0.467,-0.331,1.486,20.508,-50.049,-127.319
-0.463,-0.414,1.452,7.690,-35.583,-127.869
-0.439,-0.505,1.429,-5.676,-27.954,-128.479
-0.434,-0.591,1.426,-12.634,-25.085,-125.244
-0.420,-0.670,1.431,-16.235,-24.475,-117.859
-0.407,-0.733,1.458,-21.301,-24.048,-108.521
-0.389,-0.790,1.485,-23.804,-22.095,-97.717
-0.373,-0.843,1.512,-24.780,-17.578,-87.524
-0.369,-0.904,1.523,-25.513,-9.460,-77.942
-0.355,-0.947,1.507,-24.231,2.991,-65.979
-0.349,-0.973,1.446,-18.494,19.897,-49.316
-0.363,-0.979,1.339,-9.033,36.316,-31.006
-0.354,-0.958,1.221,-4.883,47.852,-11.536
-0.334,-0.910,1.123,-5.920,52.429,7.568
-0.308,-0.845,1.051,-5.920,49.683,26.428
-0.301,-0.771,1.018,-2.258,41.687,42.725
-0.293,-0.688,1.019,1.892,32.043,56.763
-0.290,-0.596,1.029,8.057,24.597,69.824
-0.292,-0.499,1.037,10.315,22.339,80.566
-0.294,-0.411,1.028,11.597,25.330,88.135
-0.290,-0.336,1.003,9.399,29.785,92.407
-0.287,-0.276,0.981,4.578,33.386,94.666
-0.277,-0.232,0.951,-0.549,35.645,95.215

-0.364,1.697,0.493,43.030,44.983,48.523
-0.377,1.738,0.460,45.654,40.710,31.494
-0.388,1.769,0.429,40.833,34.912,10.437
-0.382,1.781,0.408,33.142,28.870,-13.245
-0.382,1.743,0.378,25.879,21.240,-43.701
-0.381,1.627,0.366,14.771,11.536,-79.712
-0.387,1.462,0.385,1.953,0.061,-114.502
-0.388,1.280,0.419,0.916,-12.451,-143.494
-0.368,1.081,0.462,6.470,-24.719,-166.138
-0.374,0.882,0.506,10.437,-34.363,-183.105
-0.358,0.693,0.552,8.606,-40.649,-194.397
-0.339,0.506,0.586,9.399,-44.617,-200.500
-0.341,0.332,0.613,11.902,-47.668,-203.369
-0.349,0.183,0.636,12.512,-50.110,-200.745
-0.361,0.070,0.659,16.296,-54.749,-191.467
-0.371,0.004,0.706,20.142,-63.538,-176.636
-0.383,-0.030,0.783,21.179,-76.416,-161.865
-0.399,-0.047,0.907,18.127,-91.736,-152.954
-0.414,-0.085,1.054,12.878,-105.225,-152.283
-0.443,-0.154,1.207,10.071,-113.220,-157.104
-0.487,-0.262,1.337,14.954,-113.647,-163.269
-0.516,-0.398,1.439,19.470,-107.361,-167.480
-0.531,-0.538,1.518,15.381,-95.459,-166.748
-0.542,-0.668,1.563,12.451,-80.139,-159.424
-0.529,-0.762,1.578,9.155,-63.538,-144.775
-0.523,-0.803,1.574,5.127,-46.204,-124.023
-0.497,-0.792,1.537,7.385,-27.344,-98.938
-0.457,-0.749,1.458,11.841,-8.972,-76.355
-0.430,-0.700,1.361,7.874,4.395,-60.974
-0.400,-0.669,1.289,-1.526,11.841,-54.565
-0.368,-0.679,1.251,-14.221,13.977,-55.908
-0.348,-0.733,1.244,-27.161,13.550,-61.157
-0.339,-0.807,1.259,-35.156,12.390,-65.308
-0.331,-0.893,1.272,-35.278,12.146,-63.965
-0.324,-0.978,1.282,-32.654,14.282,-57.068
-0.313,-1.046,1.269,-27.527,19.287,-44.250
-0.303,-1.068,1.235,-20.630,25.940,-23.743
-0.286,-1.045,1.164,-8.301,32.593,1.892
-0.258,-0.973,1.095,2.686,36.438,28.381
-0.287,-0.867,1.031,9.705,36.194,51.575
-0.280,-0.744,1.001,11.230,32.471,70.313
-0.279,-0.625,1.005,8.545,26.367,83.679
-0.287,-0.524,1.024,6.470,20.203,91.187
-0.292,-0.450,1.044,3.601,17.334,94.788
-0.276,-0.393,1.062,-1.282,18.311,95.947
-0.285,-0.355,1.053,-1.465,22.949,95.581
-0.300,-0.323,1.027,1.282,28.687,96.741
-0.311,-0.294,0.996,3.174,32.410,98.511
-0.326,-0.269,0.959,0.916,35.217,101.379
-0.333,-0.235,0.926,-2.686,37.659,106.689
-0.336,-0.184,0.886,-4.456,39.185,115.479
-0.335,-0.107,0.852,-4.761,38.330,126.526
-0.317,-0.008,0.824,-4.944,35.034,137.756
-0.310,0.091,0.815,-3.296,29.358,146.362
-0.306,0.181,0.830,-4.150,23.254,151.245
-0.297,0.260,0.845,-4.517,18.860,154.236
-0.296,0.349,0.868,-4.883,15.686,157.837
-0.300,0.445,0.891,-4.700,13.306,159.973
-0.313,0.541,0.906,-3.662,13.306,159.302
-0.319,0.636,0.921,-4.089,14.404,157.043
-0.312,0.723,0.933,-5.127,14.893,152.283
-0.308,0.798,0.942,-5.554,16.296,144.043
-0.301,0.853,0.935,-4.333,19.165,134.521
-0.300,0.894,0.910,-0.916,23.437,125.122
-0.290,0.930,0.873,3.662,26.978,117.615
-0.284,0.969,0.830,8.362,29.358,113.831
-0.271,1.029,0.797,12.695,29.419,113.770
-0.289,1.111,0.776,17.578,27.222,115.295
-0.283,1.207,0.760,21.484,25.024,117.554
-0.290,1.319,0.756,20.935,22.522,118.347
-0.292,1.424,0.753,20.142,20.081,113.403
-0.299,1.514,0.753,21.667,18.311,102.905
-0.299,1.601,0.757,25.696,16.907,89.294
-0.306,1.679,0.757,36.560,16.479,73.059
-0.329,1.738,0.736,49.927,17.944,54.138
-0.340,1.776,0.706,50.537,20.142,31.372
-0.348,1.783,0.651,40.649,23.010,4.578
-0.329,1.734,0.589,24.536,23.315,-27.527
-0.335,1.597,0.545,9.338,17.761,-65.613
-0.346,1.401,0.545,-1.221,7.568,-102.112
-0.350,1.188,0.571,-2.197,-3.845,-129.578
-0.361,0.998,0.625,-1.404,-15.137,-145.264
-0.366,0.846,0.679,2.319,-24.109,-151.245
-0.373,0.733,0.729,7.202,-28.259,-150.452
-0.377,0.651,0.764,12.451,-28.687,-146.606
-0.380,0.594,0.797,16.785,-27.405,-143.127
-0.382,0.530,0.796,22.705,-25.452,-143.921
-0.378,0.465,0.784,25.513,-22.644,-148.499
-0.386,0.370,0.751,31.860,-21.240,-156.067
-0.416,0.253,0.742,34.180,-25.818,-165.710
-0.431,0.122,0.776,29.907,-36.072,-175.354
-0.448,-0.022,0.841,28.381,-49.683,-182.983
-0.455,-0.165,0.951,22.034,-64.148,-186.768
-0.472,-0.300,1.076,19.775,-75.500,-186.523
-0.486,-0.418,1.193,25.879,-80.017,-181.580
-0.489,-0.525,1.286,27.222,-76.050,-173.035
-0.485,-0.623,1.342,21.790,-64.697,-162.781
-0.480,-0.704,1.375,10.925,-50.415,-152.771
-0.472,-0.769,1.386,-2.930,-36.621,-142.029
-0.460,-0.815,1.385,-9.766,-24.536,-129.333
-0.443,-0.860,1.370,-11.108,-14.709,-118.347
-0.416,-0.926,1.351,-13.062,-7.690,-111.694
-0.410,-1.021,1.338,-11.414,-4.211,-108.582
-0.415,-1.136,1.324,-4.333,-2.319,-103.333
-0.421,-1.227,1.323,-1.221,0.549,-90.515
-0.423,-1.270,1.309,0.977,4.700,-69.519
-0.415,-1.253,1.293,1.892,10.376,-42.969
-0.393,-1.174,1.257,2.930,17.273,-15.076
-0.373,-1.053,1.207,4.150,24.170,7.874
-0.347,-0.952,1.141,2.380,31.311,22.156
-0.330,-0.890,1.062,-0.427,37.659,27.527
-0.310,-0.878,0.987,-4.089,41.016,27.649
-0.296,-0.899,0.930,-7.263,40.771,27.161
-0.312,-0.927,0.886,-7.874,37.537,30.151
-0.308,-0.932,0.879,-9.583,31.921,38.696
-0.304,-0.906,0.895,-9.216,24.719,51.758
-0.303,-0.845,0.925,-5.859,17.639,67.322
-0.304,-0.764,0.959,-4.272,13.367,82.520
-0.302,-0.682,0.973,-3.601,13.062,95.581

-0.408,1.426,1.067,34.668,-12.817,158.508
-0.405,1.532,1.098,34.424,-9.949,145.020
-0.385,1.630,1.106,25.513,-1.892,127.197
-0.390,1.703,1.086,19.104,9.644,105.408
-0.392,1.743,1.036,19.714,22.278,80.566
-0.411,1.756,0.972,22.400,34.058,54.443
-0.420,1.738,0.870,29.114,43.579,30.701
-0.426,1.735,0.781,30.457,49.500,11.414
-0.425,1.747,0.707,33.569,49.744,-4.333
-0.435,1.752,0.637,38.086,46.814,-21.729
-0.440,1.746,0.582,35.156,42.053,-42.480
-0.442,1.699,0.527,28.259,36.194,-68.359
-0.439,1.587,0.493,15.930,27.527,-100.281
-0.447,1.413,0.494,1.404,15.991,-134.583
-0.449,1.183,0.518,-7.874,3.418,-167.603
-0.439,0.934,0.556,-11.230,-7.324,-196.533
-0.436,0.678,0.599,-10.864,-15.198,-218.811
-0.450,0.415,0.636,-3.723,-21.912,-233.276
-0.463,0.183,0.669,6.775,-26.184,-236.389
-0.488,-0.011,0.693,16.846,-28.503,-229.126
-0.506,-0.163,0.705,30.457,-32.288,-214.844
-0.519,-0.251,0.759,35.156,-41.199,-195.129
-0.524,-0.286,0.870,35.156,-54.932,-174.927
-0.516,-0.295,0.995,42.419,-68.054,-157.959
-0.529,-0.296,1.136,42.664,-76.477,-148.682
-0.530,-0.346,1.260,37.476,-77.576,-150.940
-0.547,-0.457,1.360,29.846,-71.655,-163.452
-0.564,-0.648,1.391,20.447,-60.303,-179.565
-0.565,-0.850,1.430,11.963,-46.326,-187.134
-0.578,-1.040,1.442,19.409,-31.921,-185.547
-0.572,-1.210,1.413,19.226,-18.311,-174.744
-0.567,-1.317,1.373,18.494,-6.592,-155.273
-0.550,-1.379,1.320,17.334,2.075,-130.432
-0.514,-1.386,1.278,6.958,9.460,-104.004
-0.467,-1.363,1.235,0.244,14.893,-78.735
-0.424,-1.332,1.200,-3.784,17.822,-58.350
-0.398,-1.308,1.167,-5.432,19.836,-43.335
-0.382,-1.289,1.140,-5.981,22.095,-32.349
-0.374,-1.284,1.109,-6.836,25.085,-23.193
-0.362,-1.288,1.079,-8.362,27.893,-14.771
-0.356,-1.302,1.059,-9.216,28.015,-5.981
-0.357,-1.298,1.052,-11.169,26.672,4.700
-0.347,-1.256,1.052,-11.597,26.184,18.921
-0.330,-1.186,1.041,-10.254,27.405,33.936
-0.319,-1.105,1.025,-9.460,29.236,46.570
-0.317,-1.040,0.989,-5.066,31.799,55.847
-0.314,-1.000,0.940,-2.014,33.752,62.805
-0.324,-0.969,0.890,-0.427,35.217,69.885
-0.332,-0.934,0.839,0.183,35.828,79.346
-0.330,-0.864,0.792,-1.953,35.645,92.224
-0.320,-0.753,0.751,-4.211,34.241,108.398
-0.308,-0.612,0.726,-5.798,29.724,122.925
-0.301,-0.486,0.729,-8.057,21.973,131.958
-0.291,-0.422,0.745,-10.620,13.184,131.226
-0.271,-0.411,0.785,-16.052,5.127,125.000
-0.297,-0.411,0.832,-16.846,0.305,122.009
-0.320,-0.398,0.879,-14.526,-2.686,125.488
-0.333,-0.340,0.921,-15.076,-3.967,134.766
-0.344,-0.236,0.959,-17.761,-4.272,147.217
-0.341,-0.101,0.974,-22.217,-1.953,158.630
-0.329,0.034,0.952,-23.682,3.723,165.283
-0.325,0.147,0.900,-24.414,9.583,165.527
-0.325,0.226,0.854,-28.809,13.123,159.241
-0.337,0.268,0.825,-30.823,11.414,150.452
-0.346,0.312,0.841,-30.273,4.761,144.714
-0.364,0.382,0.904,-27.283,-4.944,145.081
-0.384,0.474,0.979,-21.606,-13.794,149.475
-0.419,0.582,1.040,-16.479,-17.944,154.785
-0.455,0.715,1.093,-16.174,-16.235,160.522
-0.455,0.854,1.119,-21.667,-10.071,164.734
-0.431,1.005,1.125,-27.100,-2.075,166.565
-0.409,1.158,1.111,-27.161,5.920,165.527
-0.398,1.306,1.088,-26.062,13.123,159.546
-0.377,1.434,1.052,-23.315,20.386,148.621
-0.358,1.545,1.003,-18.616,27.771,134.094
-0.367,1.647,0.951,-13.611,33.875,119.080
-0.383,1.730,0.886,-7.202,37.903,102.356
-0.377,1.806,0.823,-4.333,40.894,84.167
-0.358,1.880,0.765,-1.282,42.419,65.186
-0.363,1.941,0.708,6.165,40.955,44.250
-0.358,1.969,0.665,10.315,37.170,18.494
-0.354,1.945,0.642,5.981,30.701,-13.245
-0.359,1.845,0.639,-2.869,22.583,-50.171
-0.364,1.661,0.653,-14.832,15.442,-88.623
-0.370,1.437,0.667,-23.621,10.620,-122.131
-0.369,1.208,0.663,-23.315,8.911,-146.301
-0.361,1.003,0.647,-21.240,8.484,-161.255
-0.350,0.828,0.638,-18.188,6.042,-169.678
-0.339,0.668,0.634,-15.625,1.770,-174.377
-0.335,0.523,0.641,-13.184,-3.479,-176.392
-0.343,0.385,0.657,-10.254,-8.972,-177.734
-0.359,0.254,0.670,-2.441,-15.320,-177.246
-0.385,0.153,0.691,3.845,-22.522,-171.265
-0.401,0.096,0.735,7.507,-30.151,-161.072
-0.404,0.084,0.800,9.399,-39.185,-149.475
-0.413,0.093,0.902,8.484,-49.438,-143.005
-0.423,0.048,0.999,5.249,-59.570,-147.888
-0.428,-0.056,1.100,-8.057,-64.636,-161.987
-0.447,-0.220,1.193,-15.259,-66.101,-179.504
-0.465,-0.432,1.267,-17.334,-65.918,-195.801
-0.486,-0.657,1.340,-18.616,-62.317,-204.590
-0.486,-0.863,1.396,-18.738,-57.129,-201.355
-0.497,-1.018,1.463,-21.301,-52.124,-186.707
-0.474,-1.125,1.529,-22.522,-45.227,-164.429
-0.453,-1.194,1.564,-18.738,-34.485,-139.771
-0.437,-1.230,1.557,-13.611,-21.484,-115.540
-0.414,-1.228,1.526,-12.695,-8.118,-91.736
-0.387,-1.208,1.477,-14.221,3.784,-70.862
-0.360,-1.185,1.414,-15.076,14.343,-54.077
-0.342,-1.158,1.347,-14.587,22.583,-39.368
-0.320,-1.126,1.276,-11.780,27.771,-25.452
-0.300,-1.101,1.219,-10.254,30.090,-14.343
-0.277,-1.083,1.171,-8.240,31.189,-5.432
-0.266,-1.067,1.131,-5.981,32.043,2.808
-0.266,-1.038,1.083,-2.991,33.020,13.489
-0.253,-1.008,1.052,-3.296,32.837,24.048
-0.249,-0.983,1.034,-7.507,31.738,32.288
-0.247,-0.956,1.009,-8.057,31.006,40.588
-0.238,-0.913,0.996,-9.033,30.640,50.354

-0.392,1.243,1.032,-5.188,9.216,169.250
-0.369,1.383,1.022,-9.216,15.137,160.767
-0.346,1.500,0.995,-7.812,20.935,149.048
-0.332,1.593,0.956,-3.967,26.184,133.545
-0.328,1.658,0.903,-1.404,31.250,116.211
-0.328,1.709,0.841,0.488,36.133,98.145
-0.320,1.759,0.776,2.197,40.039,80.627
-0.323,1.811,0.705,5.554,41.931,65.308
-0.304,1.873,0.652,12.939,40.649,50.049
-0.297,1.913,0.609,20.691,35.583,31.006
-0.276,1.927,0.582,13.916,28.992,8.057
-0.265,1.896,0.567,12.085,21.606,-20.020
-0.270,1.790,0.556,8.301,15.320,-52.795
-0.275,1.630,0.548,3.235,10.559,-84.656
-0.281,1.447,0.549,1.648,6.531,-111.023
-0.298,1.258,0.559,4.517,1.709,-130.798
-0.302,1.083,0.570,8.118,-2.747,-144.653
-0.313,0.939,0.574,12.939,-5.432,-151.672
-0.327,0.824,0.571,16.479,-7.080,-154.297
-0.320,0.728,0.555,18.250,-8.728,-156.006
-0.320,0.627,0.550,16.785,-13.672,-159.546
-0.322,0.504,0.575,15.808,-23.254,-167.358
-0.341,0.354,0.622,17.273,-35.706,-177.063
-0.374,0.196,0.698,21.179,-48.950,-185.364
-0.390,0.046,0.800,20.264,-61.768,-189.758
-0.411,-0.098,0.950,13.428,-72.693,-193.115
-0.427,-0.268,1.081,9.155,-81.116,-197.266
-0.445,-0.437,1.217,8.606,-85.266,-199.158
-0.478,-0.590,1.333,9.277,-83.801,-196.106
-0.501,-0.734,1.422,10.010,-77.148,-187.744
-0.490,-0.866,1.472,7.812,-66.528,-176.331
-0.523,-0.958,1.522,0.305,-54.138,-161.316
-0.505,-1.032,1.547,3.845,-43.274,-142.517
-0.476,-1.068,1.541,5.554,-28.503,-123.535
-0.469,-1.084,1.480,8.240,-12.390,-104.797
-0.446,-1.090,1.403,4.822,0.061,-87.830
-0.406,-1.091,1.334,1.038,8.850,-74.158
-0.381,-1.091,1.273,-3.845,14.343,-62.561
-0.348,-1.100,1.229,-8.606,16.663,-52.979
-0.319,-1.136,1.217,-12.329,16.785,-46.875
-0.300,-1.183,1.208,-12.207,16.541,-41.138
-0.286,-1.213,1.201,-9.094,18.188,-30.823
-0.280,-1.200,1.184,-6.897,20.996,-16.052
-0.271,-1.156,1.152,-3.967,24.536,-0.732
-0.271,-1.106,1.107,-2.930,27.832,12.817
-0.262,-1.059,1.050,-3.906,30.823,24.109
-0.250,-1.019,0.995,-5.493,32.776,34.729
-0.237,-0.983,0.946,-8.301,32.837,44.556
-0.224,-0.940,0.916,-9.216,30.823,53.772
-0.229,-0.897,0.894,-7.019,28.625,63.232
-0.235,-0.848,0.873,-3.784,26.672,73.059
-0.249,-0.797,0.852,0.000,24.719,83.618
-0.259,-0.735,0.838,2.625,21.240,94.604
-0.270,-0.646,0.846,4.883,16.052,107.239
-0.275,-0.536,0.868,5.310,10.437,119.629
-0.283,-0.419,0.884,4.639,7.019,128.723
-0.291,-0.318,0.892,1.526,5.615,133.606
-0.303,-0.260,0.902,-5.432,4.456,131.531
-0.308,-0.251,0.925,-12.756,2.075,125.793
-0.323,-0.246,0.967,-16.846,-0.854,123.474
-0.338,-0.213,1.002,-15.930,-2.747,128.296
-0.340,-0.135,1.026,-12.695,-2.258,138.367
-0.338,-0.025,1.032,-10.376,0.427,148.926
-0.317,0.102,1.011,-6.836,4.456,157.715
-0.337,0.240,0.996,-4.700,7.202,163.330
-0.342,0.365,0.973,-2.441,8.362,164.734
-0.348,0.480,0.959,-1.404,8.057,163.635
-0.347,0.585,0.957,-1.221,5.615,160.950
-0.350,0.685,0.964,-3.845,2.930,157.288
-0.350,0.775,0.979,-7.690,0.427,152.893
-0.341,0.865,1.007,-13.794,-0.793,148.804
-0.326,0.964,1.036,-15.381,-0.061,146.423
-0.317,1.083,1.058,-12.207,2.563,146.667
-0.323,1.219,1.062,-7.263,7.812,146.301
-0.324,1.358,1.030,-3.601,17.029,143.188
-0.312,1.494,0.957,-3.113,29.053,136.841
-0.302,1.632,0.868,-5.066,39.734,127.930
-0.296,1.752,0.769,-5.066,44.434,115.417
-0.293,1.848,0.713,-4.089,41.626,97.351
-0.282,1.919,0.688,-0.977,33.630,75.073
-0.278,1.971,0.694,3.845,24.658,50.781
-0.281,1.977,0.701,8.179,18.066,23.376
-0.286,1.934,0.694,9.460,15.808,-7.019
-0.297,1.841,0.667,6.165,16.235,-37.659
-0.292,1.711,0.627,1.404,16.663,-65.918
-0.287,1.573,0.600,-1.160,15.259,-88.806
-0.287,1.440,0.584,-1.160,11.536,-107.117
-0.301,1.302,0.579,0.977,6.348,-122.620
-0.323,1.170,0.577,2.136,1.709,-136.230
-0.316,1.024,0.571,1.953,-1.648,-149.536
-0.311,0.859,0.576,-1.587,-6.042,-162.231
-0.333,0.693,0.607,-4.089,-12.817,-173.096
-0.322,0.534,0.631,-1.099,-20.630,-178.711
-0.335,0.403,0.673,1.160,-28.381,-180.054
-0.365,0.298,0.721,4.578,-35.828,-178.894
-0.384,0.208,0.771,6.470,-42.542,-176.331
-0.374,0.125,0.839,5.798,-50.049,-175.659
-0.405,0.008,0.932,5.188,-59.326,-180.054
-0.429,-0.141,1.039,2.686,-69.458,-186.401
-0.474,-0.303,1.173,3.662,-78.674,-192.017
-0.507,-0.470,1.320,2.014,-83.618,-195.068
-0.541,-0.625,1.465,6.104,-84.045,-192.200
-0.580,-0.781,1.572,4.089,-78.735,-183.777
-0.556,-0.917,1.679,5.615,-69.458,-170.166
-0.543,-1.018,1.761,7.263,-53.101,-156.677
-0.540,-1.086,1.741,2.380,-30.334,-137.756
-0.485,-1.106,1.654,5.310,-6.409,-115.723
-0.439,-1.103,1.552,2.258,13.916,-96.497
-0.403,-1.095,1.419,2.136,28.870,-80.872
-0.366,-1.093,1.308,1.465,36.865,-69.946
-0.333,-1.102,1.218,-3.235,39.001,-62.012
-0.301,-1.119,1.163,-7.080,38.818,-54.504
-0.279,-1.141,1.117,-9.888,37.781,-46.387
-0.274,-1.167,1.079,-9.644,36.865,-37.598
-0.268,-1.195,1.037,-9.888,36.987,-28.503
-0.253,-1.197,0.992,-9.460,38.696,-15.198
-0.238,-1.145,0.936,-6.348,39.307,2.625
-0.223,-1.042,0.895,-3.662,37.170,21.423
-0.207,-0.932,0.866,-1.892,32.898,35.767

-0.421,-0.013,0.955,148.376,14.465,-51.208
-0.634,-0.093,0.740,98.022,44.495,-48.218
-0.426,-0.046,0.929,39.795,60.913,-19.897
-0.345,0.092,0.949,-3.906,61.829,-0.061
-0.480,0.151,0.856,-3.479,53.955,9.460
-0.561,0.149,0.853,14.832,42.236,14.160
-0.559,0.130,0.838,27.527,29.541,20.142
-0.527,0.146,0.861,36.743,15.564,26.184
-0.506,0.109,0.862,52.307,1.465,28.137
-0.553,0.017,0.857,67.322,-10.620,29.785
-0.557,-0.043,0.856,57.251,-18.738,35.400
-0.544,-0.051,0.852,28.992,-21.362,40.894
-0.513,0.009,0.864,0.488,-22.217,45.166
-0.476,0.057,0.840,-12.451,-24.170,47.913
-0.442,0.104,0.833,-7.507,-25.574,50.232
-0.408,0.143,0.842,11.780,-22.400,50.964
-0.370,0.160,0.844,44.922,-19.348,55.847
-0.926,-0.187,0.914,78.918,-18.494,64.392
-0.589,-0.088,0.862,7.812,-10.376,61.890
-0.646,0.044,0.795,-49.438,-15.137,64.880
-0.545,0.010,0.873,-55.359,-23.315,89.294
-0.523,0.013,0.852,-65.857,-33.386,109.863
-0.481,-0.016,0.878,-67.566,-38.513,110.535
-0.524,0.203,1.048,-61.646,-39.978,103.149
-0.561,0.005,0.793,-6.226,-31.372,91.980
-0.532,-0.063,0.819,21.912,-23.743,90.027
-0.513,-0.088,0.822,16.968,-21.851,85.693
-0.550,-0.096,0.770,19.775,-19.897,71.960
-0.563,-0.084,0.762,28.687,-6.958,54.382
-0.545,-0.111,0.778,44.373,12.085,36.926
-0.533,-0.138,0.780,49.683,23.987,23.743
-0.520,-0.159,0.787,39.185,26.489,15.442
-0.522,-0.180,0.764,22.522,25.574,7.507
-0.517,-0.176,0.768,-5.554,22.217,3.235
-0.510,-0.138,0.809,-41.138,16.052,2.686
-0.510,-0.065,0.879,-67.871,7.446,2.502
-0.549,-0.009,0.882,-49.011,2.869,-3.296
-0.536,-0.044,0.844,-1.465,0.488,-5.920
-0.536,-0.057,0.830,-0.122,-3.784,-0.183
-0.544,-0.051,0.816,0.732,-3.845,-0.122
-0.539,-0.045,0.827,-2.136,-0.977,0.671
-0.530,-0.060,0.834,0.854,0.977,2.197
-0.528,-0.067,0.836,1.648,0.854,1.587
-0.527,-0.074,0.826,0.977,-0.244,0.244
-0.532,-0.046,0.845,-3.113,-1.831,-0.122
-0.537,-0.050,0.834,-1.953,-2.319,-0.854
-0.539,-0.053,0.827,-1.099,-2.136,-0.183
-0.543,-0.051,0.820,-0.854,-1.038,0.427
-0.538,-0.057,0.823,-0.671,1.099,1.587
-0.534,-0.057,0.831,-0.793,2.808,2.075
-0.529,-0.062,0.833,-1.038,3.174,1.831
-0.529,-0.058,0.839,-1.282,2.197,1.282
-0.529,-0.058,0.840,-1.160,0.610,0.793
-0.530,-0.058,0.837,-0.916,-0.793,0.427
-0.534,-0.057,0.832,-0.488,-1.770,0.366
-0.535,-0.057,0.828,-0.305,-1.709,0.305
-0.535,-0.056,0.826,-0.610,-1.160,0.427
-0.536,-0.055,0.828,-0.977,-0.366,0.610
-0.534,-0.056,0.830,-1.038,0.366,0.610
-0.533,-0.057,0.833,-1.099,0.610,0.854
-0.532,-0.058,0.833,-1.160,0.610,1.038
-0.531,-0.058,0.833,-0.977,0.427,1.160
-0.532,-0.058,0.833,-0.977,0.183,0.854
-0.533,-0.059,0.831,-0.916,0.000,0.732
-0.533,-0.058,0.831,-0.977,-0.183,0.732
-0.533,-0.058,0.832,-1.038,-0.122,0.732
-0.533,-0.057,0.832,-0.916,-0.061,0.854
-0.532,-0.057,0.833,-0.854,-0.244,0.854
-0.532,-0.057,0.832,-0.854,-0.305,0.793
-0.533,-0.057,0.832,-0.793,-0.366,0.610
-0.534,-0.057,0.831,-1.038,-0.305,0.671
-0.535,-0.057,0.831,-1.038,-0.061,0.671
-0.535,-0.057,0.831,-0.916,0.122,0.793
-0.533,-0.057,0.833,-0.916,0.305,0.977
-0.532,-0.058,0.833,-0.916,0.244,0.793
-0.532,-0.058,0.833,-0.916,0.183,0.732
-0.532,-0.058,0.833,-0.916,-0.244,0.793
-0.532,-0.057,0.832,-1.038,-0.244,0.610
-0.534,-0.057,0.833,-0.977,-0.244,0.671
-0.534,-0.056,0.834,-0.916,-0.183,0.671
-0.532,-0.057,0.832,-0.854,-0.122,0.732
-0.532,-0.057,0.832,-0.854,0.061,0.671
-0.532,-0.057,0.833,-1.038,0.122,0.671
-0.533,-0.058,0.832,-1.160,0.000,0.732
-0.534,-0.058,0.832,-1.038,-0.122,0.610
-0.535,-0.058,0.834,-0.854,-0.061,0.671
-0.532,-0.058,0.832,-0.854,-0.122,0.793
-0.533,-0.058,0.833,-0.977,-0.122,0.793
-0.533,-0.057,0.833,-0.977,0.000,0.610
-0.533,-0.056,0.833,-1.038,-0.061,0.671
-0.532,-0.056,0.833,-0.916,-0.061,0.793
-0.532,-0.058,0.834,-0.977,-0.061,0.610
-0.532,-0.057,0.833,-1.038,-0.122,0.732
-0.532,-0.057,0.833,-0.977,0.000,0.793
-0.533,-0.058,0.833,-1.099,0.061,0.732
-0.532,-0.057,0.832,-0.916,0.000,0.549
-0.532,-0.058,0.832,-0.977,0.000,0.671
-0.531,-0.057,0.833,-0.854,-0.061,0.793
-0.532,-0.058,0.832,-0.977,-0.061,0.916
-0.531,-0.057,0.832,-0.916,0.000,0.671
-0.532,-0.056,0.833,-0.977,0.122,0.610
-0.532,-0.057,0.833,-1.099,0.061,0.671
-0.531,-0.056,0.833,-0.977,0.000,0.732
-0.531,-0.056,0.833,-1.038,0.061,0.610
-0.533,-0.057,0.833,-0.977,0.183,0.671
-0.532,-0.058,0.833,-1.038,0.305,0.732
-0.531,-0.058,0.833,-0.916,0.305,0.854
-0.532,-0.058,0.832,-0.916,0.305,0.732
-0.533,-0.058,0.832,-1.038,0.244,0.854
-0.531,-0.058,0.833,-1.160,0.366,0.854
-0.532,-0.058,0.833,-0.977,0.427,0.854
-0.531,-0.057,0.833,-0.977,0.488,0.854
-0.531,-0.057,0.833,-0.977,0.610,0.916
-0.531,-0.057,0.834,-0.916,0.671,0.854
-0.531,-0.058,0.834,-0.854,0.610,0.793
-0.531,-0.057,0.834,-0.854,0.610,0.916
-0.529,-0.058,0.834,-0.916,0.549,0.977
-0.530,-0.057,0.834,-0.977,0.366,0.977
-0.531,-0.058,0.834,-0.977,0.488,0.854